mag_x,mag_y,mag_z,mag_h,acc_x,acc_y,acc_z,gyro_x,gyro_y,gyro_z,degree
13.4375,-12.0625,-44.6875,48.197956,0.16169481,0.011769895,11.714206,-1.140241,1.1381117,-0.09581858,-130.53629
13.4375,-12.3125,-44.375,47.971916,0.009979033,1.2239926,7.5600367,0.1948311,-0.22783528,-0.134146,-110.57079
14.375,-15.4375,-42.875,47.78308,0.35873762,1.9453272,10.107899,0.07559021,-0.3162013,-0.14905111,-114.27002
13.4375,-15.5625,-43.0625,47.719353,1.2303803,-0.05827487,11.058722,-0.47376963,0.4375715,0.1277581,-131.05392
13.5,-14.625,-43.1875,47.553135,0.32957622,0.6912922,8.288199,-0.1298874,-0.08836602,-0.33642966,-125.96964
13.9375,-16.9375,-41.875,47.272068,0.11005666,0.9190766,8.612929,0.04045673,0.03832743,0.11391764,-130.6338
11.625,-13.75,-43.625,47.194744,0.29443893,1.0450691,10.802562,-0.5067738,0.33110642,0.63772583,-126.61708
9.0625,-13.4375,-44.375,47.24231,-0.0063206926,-0.6266775,10.979119,-0.23635249,-0.044715334,0.27467993,-150.45685
11.625,-12.6875,-43.9375,47.187046,0.108055115,0.32453883,7.523099,-0.08304276,-0.15863298,0.010646508,-131.36201
14.0625,-14.8125,-42.375,47.04046,-0.5687857,0.62252116,11.959804,-0.08304276,0.17140879,0.17460273,-136.22638
14.375,-14.625,-42.1875,46.90753,0.36140954,-1.1507586,10.281507,-0.20760691,0.15011577,-0.17886133,-140.41156
15.5625,-15.125,-41.375,46.720955,-0.42415676,0.7064619,7.407861,0.07559021,-0.1884432,0.20334831,-130.01244
14.375,-13.25,-42.25,46.5539,-0.6826539,-0.06350381,11.645253,-0.27787387,0.17886133,0.42373103,-138.62357
13.8125,-13.1875,-42.5,46.593403,-0.9688089,-0.28960264,9.646411,0.06174975,-0.1863139,0.035133477,-146.75198
14.875,-14.25,-41.625,46.443176,-0.28608796,1.0889596,7.465916,0.37369245,-0.10965904,-0.28958502,-121.14658
16.75,-9.1875,-41.9375,46.083908,-0.29813555,0.73593926,12.59374,0.18524924,0.28319713,-0.17673203,-113.05214
15.9375,-9.1875,-41.8125,45.680405,-0.9736548,0.017152062,8.732612,-0.07665486,-0.15118042,-0.10114183,-129.08754
15.0,-10.25,-41.3125,45.130756,0.011405977,0.6396254,9.056269,0.1234995,-0.035133477,0.23315853,-115.919815
16.375,-8.875,-40.9375,44.975384,0.08655518,-0.13728352,12.920136,0.04045673,-0.3247185,0.18950784,-119.20926
15.125,-9.0,-41.3125,44.905327,-1.497123,0.089303724,8.549886,-0.11498229,-0.029810224,0.09262462,-137.73975
13.0625,-10.3125,-41.5,44.71271,-0.43108082,1.4019966,8.652875,0.26296875,0.11178834,-0.22038272,-107.4644
15.125,-8.6875,-40.8125,44.383537,0.052959744,0.8511292,11.494993,0.08836602,-0.17353809,-0.652631,-110.27018
16.0,-10.8125,-39.8125,44.248676,-0.5793872,-0.58008635,10.288584,0.070266955,0.246999,-0.15330972,-133.59819
13.75,-13.375,-39.75,44.13633,-0.7615764,0.8982087,8.653632,-0.09794788,0.48122218,0.5983338,-131.72766
12.875,-12.1875,-40.75,44.439434,-0.6628491,0.20546082,10.661974,-0.5898166,-0.11498229,0.41414917,-137.81145
10.625,-13.5,-41.125,44.56912,-0.83881336,0.4054724,8.382378,-0.09262462,-0.027680922,0.071331605,-150.5377
7.9375,-12.6875,-42.25,44.822304,-0.017592594,1.4305738,8.566827,0.35665804,-0.055361845,-0.0649437,-125.27071
10.6875,-13.875,-41.0625,44.64154,-0.47756663,0.8312381,11.668103,-0.17886133,0.120305546,-0.5898166,-140.44553
10.25,-13.1875,-41.3125,44.561142,-0.63563186,-0.009356541,9.003539,-0.017034413,0.2555162,0.118176244,-151.06241
10.8125,-10.375,-41.9375,44.53431,-0.20344968,1.2972263,8.6501255,-0.15118042,-0.15650368,0.2725506,-112.18757
13.6875,-10.6875,-41.0625,44.583622,-1.3128844,0.29264808,8.018201,0.054297194,-0.072396256,-0.1213702,-143.06706
11.875,-9.875,-41.5625,44.33929,-0.09181284,1.224232,9.153071,-0.35452873,0.01277581,0.21718878,-110.407196
11.0625,-8.125,-41.875,44.06711,0.025914839,0.7011659,11.65234,0.26296875,-0.37582174,-0.25232226,-116.6422
12.1875,-9.375,-40.9375,43.729908,-0.17399143,-0.72588366,9.488806,-0.16608553,0.42373103,-0.34920546,-137.51648
11.6875,-11.5,-40.0625,43.288006,-0.5505802,0.985032,8.295172,0.2991669,0.23209389,0.067073,-126.33309
13.875,-9.1875,-39.8125,43.150444,-0.29645962,-0.38590702,12.387207,-0.6292086,0.0010646508,0.8346863,-128.92276
13.8125,-10.875,-39.3125,43.06418,-1.1221241,0.35852692,8.159889,0.06174975,-0.0042586033,0.10007718,-137.50264
13.1875,-11.875,-39.0625,42.9046,0.1229662,1.1769321,9.584392,-0.22464132,0.052167892,0.1234995,-117.24122
13.875,-9.875,-39.0625,42.6135,-1.3442963,-0.64304423,13.695159,0.32791245,-0.56426495,-0.54723054,-139.602
14.375,-10.8125,-38.4375,42.4381,-0.38346493,0.13482228,7.2091427,0.16821483,0.4375715,-0.47483426,-129.30435
13.3125,-12.6875,-38.25,42.441227,-0.23430616,0.98397857,9.750722,0.1884432,0.32684782,0.11711159,-125.24032
16.125,-12.0,-37.25,42.327038,-1.4893563,-0.23484245,12.246936,0.008517207,-0.22677062,0.08943067,-137.90007
15.0,-11.375,-37.25,41.736713,-0.23803154,0.9020203,6.768638,-0.27361527,-0.23528783,0.22889993,-114.6946
14.6875,-11.125,-37.5,41.782032,0.6991356,1.3905907,10.319,-0.15118042,-0.072396256,0.1362753,-109.7533
15.3125,-12.0,-36.6875,41.52644,0.2172307,-1.2257164,13.696538,-0.23635249,0.1213702,-0.17779669,-133.72418
16.375,-11.0625,-35.9375,41.012478,-0.23100215,0.5209017,7.434035,0.23635249,0.06174975,-0.45992917,-119.105225
18.1875,-13.25,-34.5625,41.242138,-0.18972611,0.87464976,11.88838,-0.09581858,0.10114183,0.42160174,-121.14848
16.1875,-13.8125,-33.875,40.0042,-1.415567,0.1916319,12.19795,-0.23102923,0.43011895,0.42053708,-137.43633
14.9375,-13.0,-34.9375,40.159157,-0.3512677,1.2481548,7.8319125,-0.10220648,0.045779984,0.12882276,-118.477295
15.625,-13.4375,-34.9375,40.56274,0.1194994,1.9322741,10.351561,0.046844635,-0.34281757,-0.13308136,-113.08858
15.3125,-15.4375,-34.0625,40.410927,0.42415676,-0.65140486,13.026238,0.45247662,-0.072396256,-0.08197811,-136.16246
16.625,-15.5625,-33.5625,40.558887,-0.38055354,1.1077302,6.143311,0.30449015,-0.034068827,-0.26509807,-122.36493
16.3125,-14.0,-35.0,41.074295,-0.07861601,1.728968,10.334485,-0.25871015,0.09262462,0.30555478,-116.53591
15.0625,-11.25,-35.875,40.502556,-0.639951,-0.7504769,13.060619,-0.14159857,-0.07452556,0.39711475,-135.08206
10.9375,-9.3125,-38.125,40.741467,0.62752026,1.0771705,6.7944093,-0.38008034,-0.73141515,0.3683692,-103.42138
12.9375,-9.5625,-37.875,41.15016,0.47796884,0.13458288,12.075405,0.4897394,1.3670117,-0.37049848,-122.37606
14.75,-8.375,-38.3125,41.899292,0.7588566,-1.0736271,11.541594,0.13840461,0.41308454,-0.42373103,-124.36427
15.8125,-9.5625,-38.875,43.04349,-0.58613884,0.562963,6.1681724,0.27361527,0.042586032,-0.17353809,-116.007675
15.0625,-9.625,-38.9375,42.844467,-0.6140649,0.31568986,11.652972,-0.37795106,-0.17353809,0.48335147,-123.34292
15.9375,-10.125,-39.5625,43.837322,-0.36912844,0.15685852,8.723255,0.16821483,0.010646508,0.0606851,-123.41313
16.75,-11.75,-39.8125,44.762264,-0.31070036,1.76762,7.145227,-0.08091346,0.04790929,-0.1863139,-96.42218
14.625,-11.9375,-40.625,44.797157,-0.59359926,1.0650176,13.770979,0.45992917,-0.7559021,-0.35452873,-124.15688
16.6875,-12.375,-40.8125,45.795998,-0.50848055,0.03998317,10.012379,-0.030874874,0.15437438,-0.5131617,-129.91109
21.3125,-13.75,-39.6875,47.099712,-2.2126925,1.4486166,7.4344172,-0.06174975,0.79210025,-0.05003859,-120.74866
19.6875,-14.25,-40.8125,47.50074,-1.2194245,0.7483892,10.976246,-0.29810223,-0.3726278,0.17460273,-126.94871
18.0625,-12.25,-42.4375,47.720623,-1.3432621,0.5619575,8.806784,-0.5312608,0.0021293017,0.14905111,-129.40628
16.8125,-12.3125,-43.0625,47.8397,-0.469819,1.5053495,9.485281,0.014905112,-0.15118042,-0.09368927,-109.864265
15.9375,-12.1875,-42.6875,47.16738,-0.6617478,0.9152171,11.417355,-0.23954643,-0.25232226,-0.41201988,-122.84091
17.125,-10.625,-42.4375,46.97976,-0.98727304,-0.32412702,9.394206,0.0031939526,-0.27574456,-0.26935667,-133.91505
19.3125,-12.125,-41.1875,47.07864,-1.0984886,0.32338962,7.892419,-0.27467993,0.5738468,0.5067738,-127.586006
13.3125,-11.125,-43.5625,46.89008,-0.24872883,-0.04447469,13.316627,-0.37901568,-0.53019613,-0.120305546,-132.04848
14.625,-14.125,-41.375,46.10094,-1.0740963,0.08827901,8.7084875,0.6749886,0.16608553,-0.74632025,-145.38878
14.9375,-14.375,-40.875,45.831596,-0.85135895,1.3033938,10.64261,0.22889993,-0.41095522,-0.23954643,-128.30617
13.375,-13.5,-41.75,45.871593,0.46644795,0.16985425,8.40973,-0.22889993,-0.09262462,0.29064968,-128.96718
13.0,-13.125,-42.1875,46.054867,-0.44402865,0.24274331,7.585971,0.36943385,-0.82723373,-0.16289158,-138.17973
11.4375,-17.4375,-40.4375,45.49807,-0.1090511,0.5291856,10.5296135,0.28426176,-0.22889993,0.7047989,-144.38264
10.5,-15.75,-41.0,45.15875,-0.35252225,-0.109319255,10.443833,-0.61110955,0.402438,0.6473077,-150.61858
12.9375,-14.125,-41.1875,45.423615,0.36467522,1.1552023,8.110789,-0.0021293017,0.1820553,-0.13308136,-119.23788
14.6875,-13.75,-40.75,45.446095,-0.47157153,-0.66381633,10.626166,0.31300735,-0.45247662,-0.82829833,-141.71346
15.25,-11.25,-41.1875,45.33801,-0.48233587,-2.25031,11.389543,-0.51209706,-0.28106782,-0.5546831,-144.80402
15.125,-11.5,-41.5625,45.69964,-0.19598936,-0.517454,9.228326,-0.14266321,0.042586032,-0.045779984,-134.15622
16.125,-7.875,-41.5,45.21373,-0.26422408,0.65529305,10.166412,-0.26935667,0.33962363,0.07452556,-108.948906
15.5625,-8.375,-41.1875,44.818993,-0.4136127,-0.1336635,10.177244,-0.2533869,-0.16289158,0.38859755,-122.73975
13.875,-9.5625,-42.25,45.486477,-0.24780945,-0.5237077,9.399377,0.45779985,-0.13308136,0.36091664,-133.05049
16.3125,-9.4375,-40.75,44.896843,-0.20952138,0.3600209,10.214277,-0.45247662,0.43863615,0.5653296,-117.29607
15.6875,-10.4375,-40.9375,45.06571,-0.4840501,0.5861772,9.979321,0.07771951,-0.15118042,0.41840777,-120.24661
13.6875,-12.3125,-40.6875,44.658905,0.058408942,0.2765303,10.031811,0.36304593,-0.78677696,-0.09368927,-128.78403
15.5625,-10.125,-41.25,45.23571,0.071720704,0.21791066,9.010243,0.10752974,0.13095206,-0.85065603,-119.87403
17.6875,-6.3125,-41.625,45.665478,-0.85786164,0.5837064,9.700118,-0.4418301,0.28213248,-0.26190412,-104.956635
17.9375,-6.875,-41.6875,45.900623,-0.095586106,0.7723504,10.4436035,0.26616272,-0.29064968,0.21718878,-102.119774
17.125,-7.75,-42.5,46.47126,-0.38798517,-0.2195483,12.533942,-0.5749115,-0.053232543,0.649437,-118.28112
17.0,-3.1875,-43.625,46.928677,0.98495543,0.30814335,7.8408666,-0.1841846,-0.3204599,-0.96031505,-94.0547
18.1875,-1.875,-43.3125,47.013546,0.98495543,0.30814335,7.8408666,0.084107414,-0.18737854,-1.3553005,-90.70248
12.3125,0.5,-45.5,47.13913,0.30581617,-0.089236684,10.775287,-0.37369245,0.32258922,-0.9443453,-89.46754
15.375,2.4375,-44.6875,47.321293,0.69683725,-1.439825,8.81026,-0.067073,-0.11498229,-1.0146122,-103.606
16.625,3.5625,-44.375,47.52076,0.47601518,0.18560809,6.5768433,-0.29277897,0.24167573,-0.14479251,-76.437935
16.5,3.9375,-44.625,47.740387,0.022448035,-0.8919455,13.000027,-0.045779984,-0.058555797,-0.21825342,-86.97631
16.5625,3.625,-44.875,47.97106,0.616009,-1.821365,10.608957,-0.01277581,0.16715018,-0.04790929,-101.326355
17.3125,1.9375,-45.0625,48.31258,-0.6360053,0.526801,7.4906816,0.36198127,-0.1905725,0.03832743,-68.94238
19.6875,3.0,-44.3125,48.58184,0.046773124,-0.37501818,13.087578,-0.66008353,0.26509807,0.5025152,-85.0135
21.4375,1.125,-43.5625,48.564632,0.9843425,-1.3338289,10.6687355,0.31833062,-0.018099064,0.02555162,-98.96547
22.875,-0.625,-42.8125,48.54448,-0.70367503,0.879352,6.359536,0.0,0.0031939526,0.6909584,-72.98419
18.375,-4.125,-44.6875,48.493595,0.9330683,-0.028423961,12.450289,0.07984881,0.07452556,1.1806978,-101.03159
16.4375,-3.1875,-45.625,48.60033,-0.12785037,-0.8701199,9.420714,0.22038272,-0.05003859,0.6206914,-115.0428
17.5,-4.625,-45.0,48.50403,0.5387624,1.0867376,6.960931,0.39072686,-0.22783528,-0.20015436,-84.20603
19.625,-4.625,-43.6875,48.115788,-0.033758245,0.50757074,13.126268,0.03939208,-0.30023155,0.15330972,-98.54414
21.6875,-7.75,-41.9375,47.84521,-0.37544912,-0.5348072,9.5064945,0.2640334,0.1362753,0.06600835,-116.86176
17.25,-9.375,-43.0,47.270004,-0.61029154,0.424808,7.7746625,-0.29064968,0.16076228,1.0944611,-116.69742
15.875,-8.8125,-43.0625,46.73387,1.5230188,-0.55431515,12.408773,-0.3289771,-0.23954643,0.7889063,-116.80472
15.4375,-10.375,-42.5625,46.44915,-0.30565336,0.1697872,7.762739,0.071331605,-0.06387905,0.16395622,-124.44112
15.4375,-8.75,-42.8125,46.344246,0.29252356,1.280649,9.455114,0.46205845,-0.30874875,-0.28319713,-100.132385
12.9375,-9.75,-43.1875,46.12593,-0.629857,0.1396107,11.462069,0.06813765,0.4247957,-0.51209706,-131.14409
14.125,-14.875,-40.9375,45.789303,-0.08524316,0.06659711,8.091942,0.26616272,0.5685235,0.33217105,-136.71132
16.5625,-10.75,-40.9375,45.450607,-0.4684112,0.21774787,8.843013,-0.20228367,-0.38859755,0.5131617,-124.06839
15.625,-12.9375,-40.3125,45.128895,-1.410405,-1.0257814,13.803493,-0.11391764,0.17886133,0.15543902,-144.37961
14.6875,-14.5625,-39.875,44.91998,0.10700166,1.0513706,6.5705132,-0.0031939526,-0.06813765,0.045779984,-117.89792
11.125,-17.375,-39.625,44.674343,0.60243857,1.366888,10.683914,-0.72928584,0.32365385,0.17673203,-132.68477
12.8125,-19.1875,-37.75,44.24232,1.3953407,-0.74113953,10.584335,0.35133478,0.08091346,-0.43011895,-140.79079
10.9375,-20.0,-37.4375,43.831444,-0.5476114,0.7618637,6.6658025,0.019163715,-0.067073,0.45779985,-153.25273
4.75,-18.3125,-39.0625,43.402637,-0.47291228,0.02444001,11.033218,-0.5003859,0.23102923,0.66860074,-170.42989
3.75,-18.0625,-38.625,42.804287,1.0586586,-0.3061801,12.386623,0.15330972,-0.16821483,-0.01277581,-159.704
3.5625,-18.625,-37.6875,42.189213,-0.10876379,1.2789251,6.3014913,-0.04045673,-0.09368927,0.16821483,-164.84111
5.125,-17.25,-37.4375,41.53787,0.5256901,0.37542042,12.071833,0.085172065,-0.35878733,0.07665486,-157.2409
8.4375,-19.75,-34.75,40.85115,-0.04139096,-0.045125917,9.609368,0.4460887,-0.57597613,0.018099064,-157.40318
6.5,-18.8125,-34.8125,40.100754,-0.69399285,0.76462185,6.3464637,-0.023422318,0.29171434,0.7974235,-169.52452
3.875,-19.5625,-34.3125,39.68696,0.28584853,0.7389943,10.704514,-0.036198128,0.37901568,0.81339324,-164.40643
3.0625,-17.375,-35.0,39.195274,-1.3256216,-0.8169782,11.530715,-0.29384363,0.5110324,0.04790929,177.23848
6.3125,-19.125,-33.125,38.766983,0.20031807,0.9016851,7.712796,0.119240895,0.1234995,-0.42373103,-154.70267
7.8125,-14.5,-34.75,38.455788,-0.13656527,0.5082986,10.535388,-0.41734314,0.40137336,-0.43650684,-150.10387
13.5625,-10.6875,-34.375,38.46823,-0.4953699,-0.8701295,11.366596,-0.06600835,-0.21186551,-0.76654863,-137.8593
14.4375,-10.5,-34.125,38.51243,0.3368929,1.1924466,10.134206,0.04152138,-0.02555162,-0.6355966,-112.670006
13.6875,-8.5625,-35.1875,38.714653,1.226109,1.0933745,9.586441,0.3076841,-0.30661944,-1.1019136,-104.83897
12.6875,-5.5625,-36.375,38.923702,-0.045365334,0.5949304,9.289618,-0.17140879,-0.06387905,-0.5738468,-104.44507
11.3125,-7.375,-36.9375,39.328644,0.34456393,1.5691597,9.806985,-0.02448697,0.027680922,-0.0649437,-96.86106
10.75,-8.9375,-37.0,39.55302,-0.19360472,1.5622262,10.448124,0.34601152,0.18524924,0.3641106,-108.363
10.4375,-8.75,-37.3125,39.720608,-1.0730141,-0.2878788,10.593844,-0.17247343,0.22357668,0.5717175,-145.8847
12.1875,-8.6875,-36.9375,39.85457,-0.3812335,0.8900588,8.829941,-0.059620447,0.103271134,0.29703757,-114.81545
11.0,-8.8125,-37.625,40.178364,0.1896878,1.6758933,10.476931,0.36943385,-0.44395941,-0.12882276,-103.44606
13.125,-8.9375,-37.0625,40.32088,-0.67213863,1.6905458,10.214929,0.21931808,-0.02555162,-0.20867157,-103.96618
14.9375,-8.875,-36.75,40.650425,-0.57427317,0.83109444,9.108481,0.11178834,-0.09262462,0.104335785,-113.30976
15.75,-9.0,-36.6875,40.927193,-0.3292889,1.7724946,8.642896,-0.021293016,-0.09475392,0.32365385,-95.32331
14.125,-10.9375,-37.25,41.31231,-0.6569211,1.5809968,11.413858,-0.5685235,0.14479251,0.60791564,-115.201836
15.0,-12.375,-36.3125,41.191483,-0.4058842,0.641512,8.124494,-0.08836602,-0.35239944,0.2448697,-125.59479
14.9375,-12.75,-36.0,41.00843,-0.2294986,1.5906023,8.29156,0.36091664,-0.1234995,-0.27893853,-112.12841
14.9375,-11.375,-36.5,41.045944,-0.88098,1.5943182,11.059947,-0.105400436,-0.1277581,-0.18524924,-116.25598
15.3125,-12.0,-35.8125,40.755463,0.2808686,0.35660198,9.964983,0.09155997,-0.30449015,-0.35133478,-123.32647
15.375,-12.125,-35.3125,40.377953,-0.79637855,1.4196945,6.839133,0.13840461,0.39605013,0.5376487,-111.61506
13.3125,-13.875,-35.0,39.934174,-1.6310643,0.9105628,10.8103,-0.9677676,0.37475708,0.93050486,-143.6451
11.375,-14.875,-34.5,39.25438,-0.11000878,-0.07956411,9.478807,0.29277897,-0.45567057,0.43011895,-144.10956
14.5625,-12.3125,-33.5,38.547554,-0.1622311,1.3548691,5.9366145,-0.37475708,-0.08943067,-0.022357667,-108.13165
18.0,-10.125,-31.625,37.771103,0.2727379,-0.2531246,15.758482,0.072396256,0.10007718,-0.5067738,-119.81369
21.875,-11.5625,-27.9375,37.319042,-0.7742178,-1.1050677,10.966679,0.20228367,-0.17886133,-0.48015752,-126.040565
18.625,-10.625,-30.25,37.078884,-0.5943941,0.7365809,7.4440994,0.29810223,0.084107414,0.28213248,-114.8064
16.0,-10.6875,-31.25,36.69857,-0.7017214,-0.95498,10.97368,-0.15543902,-0.0021293017,0.73460907,-133.87314
16.5625,-10.4375,-30.75,36.452988,0.06007531,0.34442028,9.548613,0.13946927,-0.39179152,-0.07771951,-119.10003
14.5625,-13.25,-30.25,36.092815,-0.21711579,1.13308,7.5758386,0.11285299,0.046844635,-0.43118358,-122.05208
18.125,-10.9375,-29.25,36.106884,-0.16278656,0.32420364,12.324652,0.010646508,-0.41414917,-0.41840777,-119.80061
20.0,-13.0625,-27.0,36.050365,-0.8987354,-0.6052159,10.373137,0.12456415,0.13946927,-0.1884432,-129.88097
15.5625,-13.3125,-30.0,36.32374,0.079679035,0.9268146,6.986223,-0.120305546,0.5089031,0.45779985,-120.25186
15.625,-10.3125,-31.4375,36.58968,0.078414895,0.6049286,11.454953,0.042586032,-0.22570598,-0.04152138,-118.627396
14.5625,-9.25,-32.6875,36.96081,-1.6318783,0.83841115,7.8372083,-0.16182692,-0.15330972,0.11285299,-126.19825
13.4375,-6.125,-34.3125,37.35545,-0.93464845,2.0702949,8.547923,0.268292,0.104335785,-0.33430037,-76.16513
12.875,-4.5,-35.375,37.91314,-0.88453305,0.2843737,13.985174,-0.2640334,0.5025152,-0.33536503,-109.532715
16.1875,-8.0,-33.8125,38.331715,-0.31968337,0.45025358,7.6959605,0.40989056,0.76654863,-0.22251202,-112.027245
16.6875,-5.6875,-34.5,38.74365,-0.2003468,0.93477297,9.2615,-0.6345319,-0.24061109,0.9262462,-97.71692
16.5625,-3.8125,-35.375,39.24592,-1.4192827,0.09935937,14.079802,-0.37369245,0.087301366,-0.06174975,-105.36627
15.375,-5.1875,-36.25,39.716034,-0.4201345,0.5570254,9.019177,0.17566739,-0.3726278,-0.27680922,-101.9916
20.5,-4.6875,-33.875,39.87152,-1.0618858,1.8515512,8.470072,-0.1256288,0.011711159,-0.16395622,-79.17259
19.625,-3.9375,-34.5625,39.94009,-1.5530611,-1.9416401,16.819324,0.3854036,0.07984881,-0.17140879,-116.188896
19.75,-4.9375,-34.1875,39.78978,0.728048,0.596003,6.3264675,0.045779984,0.18524924,-0.2949083,-94.765724
19.3125,-4.4375,-34.5,39.785854,-0.09487743,2.198586,8.773772,-0.21080087,-0.03726278,0.20228367,-77.69394
18.875,-3.3125,-34.375,39.3558,-1.2954451,0.09323022,12.334438,0.008517207,-0.085172065,-0.20015436,-101.32576
19.875,-3.1875,-33.625,39.189495,-0.8482848,0.4589589,8.349127,0.12243485,-0.35878733,0.11498229,-94.35241
15.125,-3.125,-35.875,39.05825,0.6629449,2.112002,8.524517,0.1841846,-0.13095206,-0.21080087,-73.58463
14.9375,-1.125,-35.5625,38.588676,-0.05760449,0.13368265,12.460249,0.20654227,-0.014905112,-0.7016049,-92.87803
17.0625,-3.3125,-34.4375,38.57516,-0.18945797,0.40145016,7.11777,0.21825342,0.12882276,-0.19163716,-94.759476
10.75,-0.8125,-36.875,38.418594,-0.36999035,1.5483782,9.186227,-0.17353809,-0.10646509,0.52061427,-59.79096
13.9375,-3.5,-35.5,38.29822,0.7171496,0.028213272,12.922388,0.9869313,0.5025152,-0.26190412,-102.1667
12.5625,-4.8125,-35.9375,38.372913,-1.3659878,0.22513157,6.5661173,0.033004176,-0.3162013,0.5280668,-125.43615
11.5,-4.875,-36.1875,38.282513,-0.6625714,1.6015581,6.8398128,-0.030874874,0.029810224,0.031939525,-65.18428
16.25,-9.25,-33.6875,38.528854,-0.8706945,1.1448785,13.731301,-0.10646509,0.20654227,0.31939524,-114.24959
18.1875,-9.9375,-32.5,38.545933,1.0388825,0.21204965,8.773466,0.16821483,0.011711159,-0.058555797,-112.8284
15.5,-7.0,-34.75,38.68866,0.39573282,0.9538404,6.9640718,-0.31939524,0.026616272,0.34068826,-97.68463
16.1875,-5.6875,-34.875,38.86706,-1.0220942,0.0491769,12.742449,-0.013840461,0.10220648,-0.36623988,-112.573746
19.0,-7.625,-33.0,38.834785,-2.8505077,-0.078481935,8.980152,0.24806364,-0.14585717,-0.17673203,-134.319
14.125,-7.6875,-35.25,38.74501,-0.81715065,1.1043017,6.8544173,0.0010646508,0.652631,0.03726278,-100.33996
16.875,-10.5625,-33.25,38.754284,-1.9662334,1.2794998,14.9559555,0.26616272,-0.40882593,-0.055361845,-121.3508
17.4375,-12.9375,-32.1875,38.826286,-0.22162646,-0.46144885,8.438642,-0.0031939526,-0.08197811,0.19589576,-131.54848
17.375,-12.75,-32.125,38.68422,0.84999907,1.1635534,6.870995,0.48654544,0.13095206,0.30236083,-109.836296
19.4375,-14.1875,-30.0625,38.507862,0.05866752,0.8608592,12.832164,-0.32684782,0.036198128,0.0606851,-121.82658
19.875,-14.8125,-29.625,38.627274,-1.1806575,0.3152206,9.2529,-0.030874874,-0.28639108,0.009581857,-130.6879
19.875,-15.0625,-29.5625,38.676037,-0.6057043,1.9195944,5.595929,0.014905112,-0.22038272,0.10965904,-103.82238
19.8125,-13.375,-30.25,38.555004,-0.21202092,2.7556686,12.246448,-0.31939524,-0.39072686,0.17779669,-108.18354
19.5,-11.625,-30.875,38.32305,1.4291756,-0.062574856,11.355689,-0.071331605,-0.021293016,-0.3289771,-116.91486
19.8125,-5.4375,-32.3125,38.29098,0.045968674,0.7480923,6.4623814,-0.028745573,0.0649437,-0.37795106,-94.85435
17.6875,-10.25,-32.3125,38.23621,-2.2122042,1.6985712,15.575996,-0.15969762,0.20015436,1.0412285,-116.58508
15.5,-13.5,-32.0,38.03288,1.77871,-0.5888012,11.741002,0.31726596,-0.09049532,0.35452873,-126.58923
13.0,-13.5625,-32.9375,37.918602,0.26848578,0.5612296,4.9366426,-0.8985653,0.51635563,0.43118358,-123.688866
14.5625,-12.4375,-32.6875,37.884438,-0.030099902,1.8974622,11.015569,-0.57704073,-0.104335785,-0.036198128,-114.84552
15.875,-11.5,-32.375,37.847145,0.8127453,-1.275602,15.33151,0.27787387,0.4546059,-0.9326341,-128.6887
14.4375,-12.625,-32.375,37.629414,0.36501998,0.5709309,6.692531,0.17140879,0.119240895,-0.49293333,-121.46856
14.875,-11.25,-32.625,37.5795,0.552237,0.8787965,9.17685,-0.40776128,0.034068827,0.14479251,-115.96523
13.9375,-10.6875,-33.25,37.60371,-2.3034902,0.50889236,13.683227,-0.16821483,-0.3374943,0.201219,-138.79765
19.625,-14.25,-28.625,37.517914,-0.38659653,-0.28230512,6.8073187,0.7889063,0.28000316,-0.34175292,-130.71674
21.25,-16.75,-25.5,37.180305,0.43303448,2.722418,7.4351454,0.6387905,-0.09049532,-0.38327432,-108.095146
21.4375,-14.625,-26.1875,36.8679,0.022850262,2.4849994,11.659667,0.48441613,-0.29277897,-0.55361843,-112.39271
20.6875,-17.0625,-24.9375,36.6194,-1.1354358,1.0956059,7.5446463,-0.028745573,0.71651,0.056426495,-127.70801
17.5,-16.5625,-27.625,36.65661,-0.5610477,1.3787059,8.648201,-0.27042133,0.46099383,0.85597926,-127.08348
17.875,-16.0,-27.4375,36.44629,0.0713951,0.809087,13.758539,-0.27042133,0.105400436,0.27467993,-128.56949
14.25,-13.875,-30.75,36.621586,-1.0704188,0.8646707,7.3716702,-0.11711159,0.0606851,0.103271134,-136.02895
12.0,-10.8125,-32.9375,36.684998,0.6012415,2.9485936,6.97384,0.30129617,-0.16395622,-0.93050486,-80.87525
11.4375,-9.6875,-34.0,37.157288,-0.32528582,1.4744452,11.604725,0.30981338,0.07452556,-0.8027467,-116.77306
15.375,-11.1875,-32.1875,37.3843,-0.6400372,-0.36491466,8.00894,0.23422319,0.06813765,-0.31513664,-134.83177
15.5,-11.6875,-32.3125,37.695427,-0.2920543,0.88749224,8.935879,-0.45992917,-0.119240895,0.75696677,-120.16484
17.0,-13.4375,-31.375,38.130787,-0.3414036,0.81902766,11.865903,0.17460273,0.036198128,0.45779985,-124.871994
20.25,-11.375,-30.9375,38.685684,0.7750127,0.018243816,9.29838,0.052167892,0.043650683,-0.61856216,-116.45034
21.375,-9.125,-31.125,38.844845,0.4270011,2.3614585,8.7631235,0.10646509,0.47270498,-1.0593276,-92.508675
25.1875,-2.25,-30.0625,39.283924,0.8255782,1.2263389,12.429412,0.561071,-0.37369245,-1.9163715,-88.86765
25.6875,1.625,-30.0625,39.57578,-0.039877824,0.18097292,10.553823,0.49719194,-0.10752974,-1.680019,-85.212555
25.125,3.75,-31.125,40.175785,-1.7403835,1.5852871,7.146989,-0.033004176,-0.06600835,-0.42586035,-56.486298
25.875,6.5,-30.625,40.61596,-0.8157045,1.9196709,11.584,0.020228365,-0.9070825,-0.6132389,-63.70315
26.5625,11.25,-29.0625,40.948235,0.29983065,0.4619277,10.101559,0.35027012,-0.2555162,-1.4213089,-65.43797
27.0,14.0,-28.4375,41.63762,-0.9112331,1.6244466,8.460228,0.14798647,0.39179152,-1.5160627,-50.532925
23.8125,17.5,-30.125,42.199535,-1.8697853,0.42347682,12.892374,0.09581858,-0.6441138,-0.57597613,-46.017723
26.1875,15.6875,-29.25,42.27819,-0.10758585,1.2581052,8.309019,0.19376646,-0.46418777,-0.5057092,-52.30819
28.4375,11.5625,-28.75,42.05883,-0.5323747,1.1053455,7.6013703,-0.04045673,0.09475392,0.5908812,-58.989147
26.5,8.75,-30.5625,41.38694,-0.76979333,0.32482615,12.543645,-0.32258922,0.29277897,0.8144579,-68.71093
25.3125,7.3125,-30.875,40.588924,0.023587676,-0.12191275,9.886674,0.16502088,-0.18311994,0.16076228,-74.72698
24.3125,5.8125,-31.25,40.018063,-0.30574915,1.6460904,6.9829097,0.071331605,-0.2427404,0.0031939526,-60.33091
23.3125,7.375,-30.3125,38.944973,-0.13798264,1.1062553,11.962111,-0.17673203,-0.40030873,0.0042586033,-66.13257
25.0625,4.6875,-27.6875,37.639065,0.7045369,0.17134821,9.814503,-0.10220648,-0.3374943,0.1948311,-79.22141
24.6875,0.9375,-26.4375,36.184155,-0.6190544,0.030904356,9.089386,0.3119427,0.40456733,0.27361527,-87.41059
22.6875,2.5,-26.4375,34.92727,-0.17397228,0.909653,10.844048,-0.36304593,-0.30449015,0.5600063,-78.00138
24.8125,3.75,-22.5625,33.74595,-0.37117788,-0.9856162,10.690503,-0.3204599,0.056426495,-0.27787387,-86.2208
22.25,8.0625,-23.1875,33.131958,0.1893239,-0.25181255,10.061911,-0.08304276,0.09155997,-0.50996774,-71.724846
18.75,11.8125,-23.5,32.30089,0.8062139,0.4038348,11.27376,0.14159857,-0.34175292,-1.1838918,-58.28339
17.6875,12.9375,-23.0625,31.813604,0.9714234,0.54771674,9.885352,-0.16182692,-0.21080087,-0.9954485,-54.650166
16.8125,12.75,-23.3125,31.443525,0.19724391,1.2353027,9.731951,0.09049532,-0.24167573,-0.29703757,-48.037098
14.8125,9.6875,-25.5,31.040422,-0.5188235,0.82470673,9.427495,0.15969762,-0.24167573,0.30661944,-48.280807
15.625,7.0625,-25.75,30.936743,0.26021144,0.6357372,10.164172,-0.3374943,0.50145054,0.9028239,-62.069923
15.8125,6.9375,-25.5,30.796331,-0.1965448,0.08298303,10.293257,-0.09155997,0.201219,0.35346407,-64.999794
16.8125,8.125,-24.3125,30.655724,-0.75139624,1.0378385,8.969341,-0.034068827,0.005323254,0.06600835,-53.21897
16.875,10.875,-23.3125,30.765303,-0.10565133,1.8995979,10.404223,0.015969763,-0.42798963,-0.22251202,-48.12331
16.6875,11.375,-23.125,30.702263,-0.45671794,1.421744,11.342817,0.27467993,0.07559021,-0.30661944,-47.867474
17.5625,13.6875,-21.875,31.213854,-0.51875645,0.1082658,9.614472,-0.071331605,0.006387905,0.010646508,-49.557854
19.3125,15.25,-19.5,31.397215,0.14622825,1.1887691,9.766715,0.2949083,0.069202304,0.055361845,-48.309853
19.4375,17.0,-18.1875,31.584831,0.25720432,0.59694153,11.025069,-0.52061427,-0.17140879,0.15969762,-47.913048
19.25,18.0,-17.9375,31.879717,-0.46817178,0.55171984,9.130919,0.044715334,-0.268292,-0.052167892,-43.775787
18.5,17.1875,-19.8125,32.096657,-0.34066617,1.847481,8.765738,0.41201988,0.008517207,-0.23209389,-40.09014
18.8125,18.0625,-19.375,32.4893,0.5952273,0.78496295,12.599074,0.13733996,-0.40882593,-0.3119427,-45.78286
19.5625,17.8125,-19.25,32.719093,-0.22417389,-0.16759412,8.833636,-0.008517207,-0.0042586033,0.09475392,-47.561295
18.125,17.0625,-21.375,32.810596,0.35793316,1.1275254,9.338249,0.16715018,0.30236083,0.41947243,-44.27591
17.6875,18.0,-21.0,32.83059,0.44196963,0.6820027,11.191083,0.009581857,-0.28000316,-0.120305546,-43.94046
16.9375,17.75,-21.6875,32.745827,-0.8749754,0.4795586,7.630455,-0.058555797,-0.045779984,0.043650683,-36.81766
13.8125,16.5,-24.4375,32.56112,-0.7370598,1.4710646,8.574374,0.3034255,0.02555162,-0.25232226,-29.570091
14.0,17.6875,-23.3125,32.439487,0.4701063,1.3122427,11.707599,-0.05110324,0.3247185,-0.40350267,-36.583107
15.125,16.4375,-23.375,32.331837,-0.3354947,-0.30174604,9.724079,0.011711159,0.29810223,0.13308136,-42.367546
15.125,16.75,-22.875,32.133995,-0.3847961,0.9825229,9.135891,-0.1927018,0.64517844,0.41521382,-36.439083
15.3125,16.5625,-22.375,31.771523,0.21085255,-0.72277117,13.758394,0.21293017,0.023422318,-0.069202304,-45.507908
15.0625,17.125,-21.625,31.42905,-0.8309604,0.30563423,7.4107437,0.09794788,0.25232226,-0.15969762,-34.81579
15.75,14.0625,-23.1875,31.36043,-1.2310506,-0.22720017,13.163043,0.018099064,-0.20973621,-0.35452873,-44.75508
16.1875,13.4375,-24.6875,32.43569,0.2519179,-0.3621661,7.3901057,0.25232226,-0.07984881,-0.23422319,-54.27367
18.125,11.4375,-24.25,32.363476,-0.8355381,0.8652741,11.051741,-0.020228365,0.44289476,1.2158313,-50.500706
17.9375,9.8125,-24.125,31.623642,-0.54922986,-0.43746853,12.647313,-0.9102765,0.15330972,0.46099383,-62.06535
17.25,11.3125,-24.375,31.932364,-0.3791266,0.44588652,6.765114,0.08197811,0.15863298,-0.40989056,-50.767136
15.4375,11.625,-24.125,30.91072,-0.42703938,1.9091077,11.229688,-0.33217105,-0.53019613,-0.07559021,-42.93209
11.8125,11.875,-24.125,29.36948,0.07501513,-1.1299387,13.6775,0.086236715,0.055361845,-0.35027012,-50.478844
11.125,10.75,-24.0625,28.606503,-0.047520116,0.23219927,6.9029527,0.68776447,0.17886133,-0.6153682,-43.482826
10.875,10.1875,-24.375,28.569063,-0.5939152,1.089065,9.94562,-0.27361527,0.21505947,0.16076228,-36.21194
11.625,11.0,-23.125,28.123056,0.467262,-1.3245202,13.305575,-0.25445154,0.043650683,0.5291315,-55.014557
10.75,11.1875,-22.9375,27.692085,-0.21657948,1.2095411,5.968735,-0.2991669,-0.11178834,0.2491283,-32.44237
10.125,12.0625,-22.5,27.463968,-0.30461907,0.17469053,13.460844,-0.057491146,0.055361845,-0.40137336,-37.88343
8.875,12.0,-22.8125,27.261251,1.1019074,-0.83840156,11.933678,0.09581858,0.16927949,-0.35027012,-46.319717
6.625,13.4375,-22.0625,26.66854,-1.1627201,0.33377087,5.7105255,0.11285299,0.62707937,-0.084107414,-8.077018
6.75,13.75,-22.0625,26.858498,-1.1627201,0.33377087,5.7105255,0.11285299,0.62707937,-0.084107414,-8.368109
6.875,11.9375,-22.75,26.595715,-0.25694573,-0.62611246,11.422181,-0.65369564,-0.8953714,0.8921774,-30.812098
9.25,10.75,-22.3125,26.438091,0.7904026,-1.0328203,10.507108,0.3641106,-0.16395622,0.23209389,-51.734234
9.5,11.1875,-22.0,26.446363,0.61993545,0.6729718,8.07185,0.21612412,0.31726596,0.33110642,-40.842384
13.8125,9.6875,-20.5,26.54963,-1.2720585,-1.6286222,12.742487,-0.02555162,0.030874874,-0.06174975,-59.619957
15.5625,7.6875,-20.4375,26.81381,-0.13963942,-1.1187339,10.12505,0.021293016,0.5685235,0.73247975,-70.62435
17.5,8.0625,-19.0,27.06019,0.23880725,1.223734,8.479238,0.0606851,0.09155997,0.7016049,-59.495007
17.8125,10.0625,-18.4375,27.540524,-0.024612395,-1.1461809,12.485646,-0.06174975,0.48122218,0.0031939526,-64.88745
17.125,13.0,-17.875,27.960352,-0.68539286,-0.07710288,9.038811,-0.15863298,0.15863298,-0.4333129,-50.77292
13.25,17.0,-17.875,28.001394,0.92999417,0.9695463,11.396917,-0.2491283,0.07346091,-0.66008353,-38.61637
10.25,17.8125,-19.875,28.589565,1.2347665,0.855228,9.428232,-0.05110324,0.10965904,-1.518192,-33.31906
9.0,17.9375,-21.125,29.13794,0.12498691,0.96619445,9.734163,0.31513664,0.023422318,-1.0390992,-24.951511
10.8125,16.0,-22.5,29.650635,0.029266723,0.8608304,10.237368,0.118176244,-0.14266321,-0.5025152,-31.389404
13.6875,16.3125,-21.4375,30.216084,-1.0733589,0.6403245,10.636327,0.30023155,0.14053391,0.22464132,-33.02253
15.6875,15.125,-21.4375,30.568443,-0.820694,-0.19429424,10.850408,-0.44821802,0.120305546,0.60791564,-43.61725
17.0,14.0625,-21.6875,30.937057,-0.5175306,1.3680469,9.237079,-0.2555162,-0.11498229,0.54935986,-42.469116
17.25,14.125,-21.8125,31.190756,-0.5116026,0.9508524,9.959391,-0.08091346,0.057491146,0.27148595,-44.814587
17.0,14.6875,-21.4375,31.053003,-0.27540025,0.9193351,10.594199,0.02448697,0.09794788,-0.09901253,-44.851143
13.75,15.375,-23.25,31.080791,-0.7771196,-0.42805454,10.005043,0.09049532,0.30874875,-0.34175292,-39.73094
14.5625,14.0625,-23.125,30.734118,-0.4004925,1.3770969,9.406368,0.12456415,-0.32258922,-0.37795106,-38.02451
14.375,15.8125,-21.6875,30.44706,-0.63861024,1.079536,9.974081,-0.026616272,0.067073,0.54190725,-35.537544
14.0625,15.875,-21.375,30.110798,0.07229531,0.75532275,12.032664,-0.76974255,-0.18099064,0.46631706,-39.560608
12.125,14.9375,-22.625,29.699078,-0.0847739,0.41477153,9.09766,-0.27787387,0.013840461,0.1841846,-36.74456
10.625,15.5,-22.9375,29.65248,-0.09416874,1.0785112,10.845408,0.22677062,-0.20441297,-0.27787387,-30.494627
7.75,15.25,-23.625,29.167887,0.37587053,-0.39698738,11.771687,-0.1905725,-0.15543902,-0.07878416,-30.458296
8.5,14.125,-24.0,29.116415,0.16856137,-0.27771783,7.9051847,-0.02448697,-0.40456733,-0.16076228,-34.153763
11.1875,13.5625,-23.0,28.949984,0.2234269,1.241566,10.416329,0.06387905,0.10007718,0.20760691,-35.854435
10.0,14.375,-23.0625,28.957201,-0.90473056,-1.114252,12.961059,-0.2555162,0.32152456,0.5568124,-34.24042
8.75,13.375,-24.6875,29.40962,0.27329335,0.7938598,7.0989804,-0.27042133,-0.21293017,0.13946927,-31.217356
7.3125,13.5,-25.3125,29.604818,0.3883491,1.696742,10.361042,0.20973621,-0.22570598,-0.011711159,-25.428553
5.4375,15.25,-25.375,30.100159,0.5855451,-0.72118145,12.038534,0.046844635,-0.28319713,-0.10114183,-25.898218
6.8125,15.375,-25.625,30.650309,0.35544318,0.2179011,7.3956122,-0.26296875,-0.28639108,-0.15011577,-26.505177
9.1875,16.625,-24.6875,31.149212,0.56806743,1.1913548,10.736358,0.054297194,0.33855897,0.056426495,-28.64317
8.9375,16.0625,-26.0625,31.89258,-0.74752724,-1.730347,12.922569,-0.30449015,0.2491283,0.54403657,-30.876987
5.5625,15.9375,-27.5625,32.32084,0.15965496,0.66047406,5.1689763,0.22677062,-0.0606851,-0.05110324,-18.394674
4.375,16.875,-28.0625,33.0365,1.1032481,1.6461095,11.7372,0.20015436,-0.48867473,-0.43970078,-18.791025
6.4375,16.9375,-28.625,33.877884,1.2087654,-1.2316636,11.20176,0.04790929,-0.20441297,-0.4982566,-34.425354
8.125,17.6875,-28.5625,34.56414,-0.25863126,0.27093744,7.384867,0.086236715,0.30555478,-0.08091346,-20.812613
10.125,17.1875,-29.375,35.507977,0.42916542,0.77769417,10.829242,-0.20228367,0.0,0.23528783,-30.414597
9.0625,16.75,-30.625,36.063583,-0.40227377,-0.61282945,11.299281,-0.031939525,-0.0021293017,0.45779985,-27.893353
9.875,17.625,-30.1875,36.324116,-0.5993932,1.4551861,5.261364,0.22996458,0.014905112,-0.49506265,-14.21743
9.6875,18.875,-29.5,36.336803,-0.2809069,0.85074604,13.591251,-0.08943067,0.21399482,-0.15863298,-23.682215
11.0,18.0,-29.375,36.164772,1.3184581,-0.48559198,9.925279,-0.10752974,0.14372787,-0.44821802,-41.60011
11.875,16.8125,-29.375,35.86874,-0.093661174,0.8830677,5.5735865,0.23528783,0.51635563,-0.35452873,-28.189909
11.4375,16.75,-28.8125,35.23548,-1.042809,0.22813869,12.134351,-0.1969604,-0.2640334,0.87407833,-27.294031
11.375,17.375,-27.9375,34.810703,-0.66075176,-0.28617412,7.574699,-0.15969762,-0.10965904,0.23528783,-28.677792
8.0625,16.0625,-29.1875,34.277077,0.03259945,1.272748,8.035123,-0.12243485,0.06813765,-0.09688323,-21.826836
9.5625,15.1875,-28.9375,34.051144,0.30278033,-0.19940826,14.398126,0.3119427,-0.61856216,-0.23422319,-34.513382
14.625,13.5625,-27.625,34.073048,-0.25154442,-0.697067,9.218442,0.30236083,0.268292,-0.3119427,-50.543926
14.75,15.5625,-26.6875,34.234142,-1.3114959,0.52705956,6.921953,-0.017034413,0.49293333,0.80700535,-28.310837
15.25,15.5,-26.75,34.472816,-0.7820899,0.03320279,13.466015,-0.6143035,-0.21399482,0.37369245,-41.293037
15.0625,13.6875,-28.1875,34.76725,-1.0064458,0.10025959,8.623876,0.028745573,0.031939525,-0.09475392,-39.810005
19.75,16.1875,-24.0625,35.087055,0.12666285,1.7583591,9.707205,0.33430037,-0.23102923,0.005323254,-44.845768
17.9375,17.0625,-25.0625,35.227997,-2.5783255,-1.0176028,13.94588,-0.85597926,0.46951103,0.47909287,-41.05246
18.125,15.1875,-25.8125,35.006584,0.17547584,0.51939815,6.352555,0.0,-0.10114183,-0.37475708,-47.59467
18.375,14.1875,-26.0,34.855785,-0.7405553,1.6492603,10.108991,0.36517525,0.21931808,-0.045779984,-41.782078
13.625,16.0,-27.25,34.412254,0.2937398,-0.3497354,12.703175,-0.16076228,-0.06600835,0.39605013,-43.05538
12.1875,14.125,-28.125,33.750057,-0.53123504,1.0057753,5.920516,-0.5003859,-0.8261691,0.07452556,-27.133785
13.375,13.125,-27.4375,33.226086,0.8310657,1.1127483,9.820584,0.22677062,-0.15650368,-0.15224507,-44.380566
14.5,11.5,-27.0,32.733776,3.2281692,-1.707401,11.983382,0.23528783,0.41201988,-0.29277897,-68.33045
13.375,14.1875,-25.5625,32.149918,0.92604846,0.13006261,7.5243626,0.61643285,0.7133161,-0.52487284,-48.332954
11.1875,13.0625,-26.375,31.486977,0.18795441,0.23338678,11.971306,-1.0263234,-0.28426176,0.56745887,-40.52394
10.5,13.875,-25.3125,30.716255,0.075513124,-0.70079243,8.4833555,0.17673203,-0.17460273,-0.17140879,-42.383987
4.25,10.6875,-27.6875,29.981375,-0.11948981,0.77448595,7.1344624,-0.25445154,0.022357667,0.0021293017,-15.533532
4.25,9.9375,-26.875,28.966913,1.2515259,0.8110406,12.766238,0.71544534,-0.9070825,-0.8229751,-30.614113
5.875,9.25,-25.4375,27.697374,-1.5895584,-0.36999035,8.432091,0.18311994,0.27467993,-0.74951416,-7.446589
3.375,10.375,-24.5625,26.876526,-0.38766912,1.4248372,7.230135,-0.053232543,0.40882593,0.18524924,-7.8266454
6.0,9.75,-23.0,25.69168,0.17886603,-0.2182267,12.268091,-0.32152456,-0.39711475,0.07346091,-34.143314
6.0,9.1875,-22.1875,24.752684,-2.0721338,0.6945292,8.195592,0.008517207,0.3939208,0.43224823,-1.9629062
7.75,10.6875,-20.125,24.068668,0.22492088,1.5978903,10.256205,-0.010646508,-0.20760691,0.17353809,-30.997807
7.375,10.4375,-19.8125,23.576836,-0.41515458,-0.9110416,13.640083,-0.26509807,0.35665804,0.026616272,-36.70265
8.25,10.5625,-19.8125,23.91995,0.43856984,0.5698966,6.127078,0.22783528,0.015969763,-0.17460273,-38.123283
11.6875,11.625,-18.4375,24.732159,-0.368889,0.86242014,9.924904,0.104335785,0.057491146,0.34920546,-39.76431
11.75,11.5625,-19.9375,25.870018,0.28246793,-1.8320527,14.12782,-0.43970078,0.3034255,0.68882906,-53.664753
14.0625,12.5,-20.125,27.550308,-0.6275682,1.5040183,6.1503406,0.21718878,-0.22783528,0.09688323,-34.75875
12.6875,16.8125,-20.8125,29.61069,0.39097315,0.059883773,13.3353,0.071331605,0.3768864,-0.23422319,-38.17867
14.0625,16.125,-23.25,31.596394,0.777924,-0.39125085,10.269479,-0.14479251,0.09368927,-1.1572754,-45.931545
16.375,17.1875,-23.4375,33.359665,-1.133032,1.1779184,5.6622295,0.5749115,0.23209389,-0.22038272,-27.429993
16.9375,16.75,-25.625,34.986885,-0.1772571,-0.80505514,12.029111,-0.85278535,-0.52380824,1.1519523,-47.8547
18.8125,17.8125,-25.625,36.439484,-0.16243222,-0.3603465,9.504655,0.11178834,-0.16821483,0.22251202,-47.530067
16.0625,17.4375,-28.8125,37.312603,0.024210166,1.0999538,8.819857,-0.09049532,0.24380504,0.0649437,-37.727955
18.625,19.3125,-26.5,37.71092,-1.2484133,-0.28012162,12.578867,0.2512576,-0.40669662,-0.30236083,-40.42929
22.6875,15.75,-25.6875,37.717804,-0.4028388,0.45260948,8.625639,-0.28000316,0.57917005,-0.071331605,-51.4129
18.0,17.0,-28.125,37.470196,-0.24115357,1.9028636,8.763199,0.8165872,1.143435,-0.120305546,-37.204937
14.5625,16.875,-29.4375,36.924225,-1.4313208,-0.15188815,11.208369,-0.36304593,-0.67924726,0.14053391,-33.072166
14.8125,16.4375,-29.0,36.477413,-1.5535305,0.83142006,6.7181873,0.22783528,-0.13840461,-0.3076841,-21.45071
14.8125,20.375,-25.6875,35.97775,-0.44584823,1.5943468,10.5973015,-0.031939525,0.16927949,0.02555162,-29.696863
13.4375,19.625,-26.4375,35.561897,-0.7034739,-0.13760912,14.103313,-0.8868542,0.07665486,0.043650683,-32.01304
13.875,19.0,-26.375,35.343403,0.11936532,0.7655508,6.8848715,0.12456415,0.09155997,-0.21399482,-33.353775
14.5625,18.75,-26.1875,35.347054,-0.54651964,0.38490143,9.567249,0.05110324,0.32684782,-0.072396256,-33.35577
14.375,18.3125,-26.6875,35.41484,-1.241566,-1.1273625,13.501995,-0.48654544,-0.34175292,0.79316485,-36.678593
13.3125,18.0,-27.3125,35.31565,0.13274412,1.2890477,5.851027,0.13733996,0.15330972,-0.15330972,-30.7766
12.1875,17.375,-28.1875,35.284004,1.2607197,-1.2455691,12.873719,0.058555797,0.006387905,-0.4247957,-45.303448
11.0,10.4375,-32.125,35.524036,0.3448321,1.3061136,8.098971,0.31939524,0.30661944,-0.84533274,-38.859787
13.0625,11.4375,-31.1875,35.694614,-1.0216346,0.88275176,8.369851,1.0987197,-0.33536503,0.1820553,-31.894552
11.5625,13.125,-30.875,35.485527,-0.21915564,-0.663213,12.291659,-0.57278216,0.0,0.88472486,-43.923702
12.75,14.125,-29.75,35.314877,-0.22240219,1.7034553,5.88851,-0.29384363,-0.19802506,0.035133477,-27.882523
10.75,13.25,-30.6875,35.11193,-0.54443187,-0.41942585,15.955161,-0.30981338,0.09155997,0.27680922,-37.958744
14.6875,11.9375,-29.125,34.734596,0.36128503,-0.9788167,10.054258,0.15118042,-0.20334831,-0.24593434,-59.90223
17.6875,9.3125,-27.8125,34.250626,-0.5823465,1.8211448,6.657691,0.23422319,0.6696654,0.1905725,-42.345184
12.3125,6.875,-30.9375,33.999886,0.4692348,0.968761,10.217983,0.12456415,0.4503473,0.66540676,-54.72326
14.0,13.8125,-27.5625,33.85966,0.7570466,0.34777215,10.507347,0.43863615,-0.9187937,0.15224507,-47.36673
11.1875,16.125,-27.0625,33.429848,1.6383618,-0.55254346,8.601457,-1.08275,0.37475708,-0.17566739,-47.81166
10.125,18.5625,-25.125,32.838203,-0.5736508,-0.64809126,9.2594795,-0.18950784,0.30981338,-1.0710387,-27.08052
9.5,19.875,-24.3125,32.807976,-0.6226457,1.1972731,9.093723,-0.54084265,0.029810224,-0.47164032,-18.810068
10.0,17.5625,-25.875,32.832256,-2.7681377,-0.87895936,12.096694,-0.33217105,-0.11285299,-0.08304276,-14.317682
12.4375,17.25,-25.375,33.108074,-1.9031318,0.7358435,7.9382634,0.019163715,-0.72609186,1.1125602,-17.450825
13.5,16.4375,-25.9375,33.54393,-0.6403245,1.528219,8.4620285,-0.20973621,0.0606851,0.70586354,-28.78243
6.8125,16.125,-28.8125,33.71329,1.8103325,0.700553,11.661994,0.070266955,-0.007452556,0.059620447,-32.180447
6.8125,17.9375,-28.25,34.15006,0.21107282,-0.53896356,9.144032,0.43118358,-0.72396255,-1.5501317,-24.660542
6.6875,16.8125,-29.125,34.28773,0.15727033,-0.6699934,9.1035595,-0.33110642,0.104335785,-0.6238854,-26.157513
5.3125,19.125,-28.4375,34.679672,-0.1791629,-0.40592253,8.791135,0.37582174,0.268292,-0.77825975,-14.896395
7.0625,19.5625,-28.75,35.48426,-0.7043262,-0.5656828,9.191379,-0.018099064,-0.17566739,-0.09794788,-15.278763
6.875,19.8125,-29.0625,35.83894,-0.90319824,-0.062028978,8.994748,0.04045673,-0.34814084,0.37582174,-11.352463
9.3125,19.3125,-29.5625,36.51899,0.60337716,-0.2853601,12.645925,0.32684782,-0.21505947,0.17886133,-29.86617
10.9375,19.125,-29.375,36.719,0.13186306,-0.27662608,8.362372,-0.1820553,-0.4333129,0.31833062,-32.132275
12.5625,18.4375,-29.125,36.68819,1.1625669,0.24522372,9.024216,0.18737854,0.069202304,0.3119427,-40.172993
13.8125,15.625,-30.25,36.742188,-0.26848578,-0.8359116,11.463668,0.2949083,0.044715334,0.5482952,-44.43498
13.8125,14.875,-30.625,36.74155,1.3085175,-0.6824911,9.610622,-0.087301366,-0.15118042,0.28319713,-54.224247
13.375,15.25,-30.6875,36.785538,0.26283544,1.92037,7.9171658,-0.09794788,0.08943067,0.1277581,-33.24988
12.625,15.25,-30.8125,36.624626,0.49856856,-0.29479328,12.725259,0.48867473,0.36198127,-0.83255696,-43.539516
10.25,16.1875,-31.1875,36.602703,-0.6040954,-0.06845502,8.945945,-0.009581857,0.29064968,-0.7101221,-27.004316
11.375,13.875,-30.875,35.70955,-1.6512331,0.037809234,7.9427834,0.1884432,0.33855897,0.27467993,-19.083565
13.875,12.375,-29.875,35.187668,0.70251626,-0.29700553,12.106338,-0.23528783,-0.4247957,0.84746206,-53.19151
14.5625,10.375,-29.9375,34.870632,-1.6855084,-0.13536817,8.991118,0.51848495,0.06600835,0.1841846,-41.627552
16.4375,7.75,-29.0,34.223587,0.8364958,0.7932948,9.025739,-0.18950784,0.21825342,0.29171434,-62.0466
16.3125,7.625,-28.625,33.81758,-1.2635064,-2.0545316,14.764323,-0.26722735,1.0241941,-0.34494686,-75.995926
16.625,6.9375,-28.875,34.03359,0.36233848,-0.4583747,8.62786,-0.3374943,-0.06387905,0.15118042,-73.03878
17.9375,8.8125,-27.3125,33.843563,0.6034633,1.2777281,10.218175,-0.21612412,0.6579542,-0.38859755,-58.43364
16.6875,10.9375,-27.5,33.97575,1.1494561,1.8974814,10.041982,0.026616272,-0.104335785,-0.76122534,-51.9205
13.8125,13.375,-28.125,34.06892,0.004424485,0.76703525,10.077654,0.31513664,-0.36943385,-0.6962817,-41.784893
11.5,12.25,-29.875,34.275764,-0.90867615,0.4268574,9.704685,0.4588645,-0.1841846,-0.006387905,-32.5277
11.5625,13.3125,-28.875,33.833115,-0.27076504,1.2604514,8.992411,-0.381145,0.28852037,-0.19163716,-31.802576
10.75,16.25,-28.875,34.833755,-0.7880275,0.69532406,11.642208,-0.43863615,0.22038272,-0.3768864,-26.017958
10.9375,16.4375,-29.4375,35.445545,-1.4044962,0.7861122,10.870451,-0.26616272,-0.29703757,0.57597613,-20.842607
12.1875,17.0,-29.0625,35.80732,-0.029822176,-1.4557896,11.3761835,0.09262462,0.5632003,0.3896622,-42.60312
13.0,14.625,-29.9375,35.76513,-1.5124075,0.732415,6.6069336,0.055361845,0.10965904,0.104335785,-18.424074
12.375,12.625,-31.125,35.795208,-0.1185896,1.4055687,10.236323,-0.20973621,0.5057092,0.89750063,-35.63192
9.75,11.4375,-32.3125,35.63673,-0.5718982,0.6141989,9.351848,-0.008517207,-0.17673203,0.7473849,-29.776566
13.625,10.75,-30.875,35.41848,0.77348995,1.532586,8.196492,-0.28106782,-0.11604694,1.0987197,-45.8938
13.875,11.125,-30.5,35.306248,1.3443825,2.9480765,9.170808,0.23635249,-0.33962363,-0.085172065,-43.484768
9.5625,11.8125,-31.625,35.08728,1.5672541,-0.19825906,11.835354,-0.42798963,-0.35133478,-0.80700535,-50.314426
13.25,10.9375,-30.375,34.89745,-0.18220833,0.28672957,7.706217,-0.17460273,0.6217561,-0.2991669,-46.066547
13.1875,9.6875,-30.75,34.83275,-0.041170694,1.0794593,9.849593,0.006387905,-0.010646508,0.35133478,-45.160816
17.75,7.8125,-28.0625,34.111603,-0.48221135,-0.49184564,12.788275,-0.10965904,-0.11391764,0.53019613,-68.10366
17.0,6.0625,-28.5625,33.787132,0.02446874,0.51098967,8.0414915,0.35772267,0.15011577,0.35027012,-65.30204
16.6875,7.1875,-28.25,33.58862,0.12783122,1.5408412,9.388584,0.03726278,0.71118677,-0.17779669,-55.733448
16.75,8.3125,-27.625,33.35867,-0.10238564,0.43144473,11.772482,0.44821802,0.1863139,-0.9326341,-60.54337
16.0625,9.6875,-27.4375,33.236546,0.3671556,0.032494105,8.524057,-0.14692181,-0.04790929,-0.18311994,-60.394623
16.3125,11.4375,-26.5625,33.20362,0.9838924,-0.020705057,10.808577,-0.26190412,-0.26935667,-0.3896622,-58.591515
16.75,12.75,-25.8125,33.307808,0.5958498,-1.7862085,10.30588,0.20015436,0.38220966,-0.48761007,-65.40924
17.5625,11.5,-26.0,33.41693,0.047462653,-0.27911603,9.448583,0.15330972,0.14266321,0.41521382,-58.76518
17.9375,11.8125,-25.5625,33.38758,0.14569196,-0.04762546,9.725888,-0.30236083,-0.17460273,0.41947243,-57.45899
19.0625,10.125,-25.8125,33.647877,-0.971433,0.3104705,10.779836,-0.1905725,-0.32578316,0.27148595,-56.801815
18.25,10.1875,-26.5,33.750523,-0.9152554,-0.048382025,9.193092,-0.0031939526,-0.11498229,0.023422318,-57.126453
12.9375,10.25,-29.625,33.91286,0.33772612,0.47192588,10.042307,-0.1905725,0.582364,-0.134146,-50.188454
13.25,10.75,-29.5625,34.133068,0.19807708,-0.525738,10.906518,0.1927018,0.29597294,-0.02448697,-55.919044
14.5,11.8125,-28.9375,34.455246,-0.72886205,0.07913315,8.258617,-0.25871015,0.12456415,0.21931808,-44.52402
14.125,12.5625,-28.875,34.512283,0.03178542,0.62303835,9.698318,-0.29277897,0.5429719,0.3332357,-44.66894
14.3125,12.1875,-29.25,34.76989,-1.1298429,1.0353868,10.105581,0.31407198,0.20015436,0.0042586033,-35.773388
14.0,12.9375,-29.1875,34.860996,-0.26643634,-0.0051235915,10.700138,0.055361845,-0.48761007,-0.018099064,-45.75628
10.5,14.875,-30.0625,35.1464,0.41388085,0.59873235,9.482169,-0.18311994,-0.12243485,-0.027680922,-35.2345
11.75,15.8125,-29.375,35.369312,-0.2637548,0.734589,9.452117,0.027680922,0.06174975,-0.5898166,-31.166792
13.25,18.9375,-27.25,35.731693,0.31671456,0.7915997,10.278806,0.013840461,-0.31726596,-0.8336216,-33.921402
12.6875,21.25,-25.75,35.71551,1.1901194,-0.39442077,11.854411,-0.15011577,0.4333129,-0.29597294,-36.63923
10.9375,22.3125,-25.625,35.69478,0.19174683,-0.23582888,9.914236,-0.019163715,-0.017034413,-0.18737854,-27.776762
8.75,23.25,-25.5625,35.645004,1.1131793,0.43854114,10.2491665,0.118176244,0.007452556,-0.55894166,-25.275198
3.0,24.5,-25.4375,35.444553,0.018770542,0.15198392,10.448133,0.2597748,-0.36730453,-0.7431263,-6.9826865
2.125,23.5625,-26.0625,35.198875,0.394756,-0.5416929,9.378126,-0.09262462,0.09475392,-1.0678447,-8.314336
5.0,21.5,-26.6875,34.633404,-2.0580366,0.45764688,9.962264,0.54935986,0.26190412,0.27893853,1.2684125
7.5,19.1875,-27.0625,34.0116,-1.0369383,-0.14768395,10.070204,-0.2512576,0.28000316,0.43863615,-14.016617
6.875,19.0625,-26.75,33.55901,0.08237969,-0.5373259,9.890179,0.05003859,-0.33536503,0.5280668,-21.978071
5.0625,18.9375,-26.6875,33.113148,0.73574775,-0.08268615,8.249078,-0.06600835,0.04897394,-0.16395622,-21.650774
6.5625,20.875,-23.9375,32.432022,-0.11143572,1.7670933,9.130336,-0.21186551,-0.017034413,0.10114183,-14.0479355
10.5,18.25,-24.0,31.926674,-2.066761,-0.5429858,12.496536,0.24593434,-0.36730453,0.9187937,-20.595695
12.5625,15.625,-24.1875,31.416431,-0.9514366,0.066261925,9.534764,0.14372787,-0.15756832,0.77613044,-32.585724
16.5625,16.625,-20.5,31.160183,0.40983945,0.6234118,9.554934,0.45247662,-0.10007718,0.07346091,-44.269543
14.9375,18.0,-20.125,30.85684,-0.23224714,-1.5462904,13.898896,-0.17353809,0.20441297,0.18311994,-43.03333
16.3125,16.5,-19.9375,30.591692,0.6506291,-0.7697454,9.662328,-0.085172065,0.33110642,-0.045779984,-49.66206
20.25,10.5,-20.25,30.502048,1.0903673,0.16475938,9.021859,-0.07984881,-0.09901253,1.0902025,-64.35358
16.5625,10.1875,-23.25,30.309471,0.8384207,-0.459907,10.719358,-0.9411513,-0.16502088,1.4404726,-63.234432
16.0,10.4375,-23.4375,30.236696,1.5392035,-0.3151727,11.135576,-0.17460273,0.32365385,0.32258922,-62.68256
14.8125,8.875,-25.0625,30.435253,0.014460978,0.48649222,9.7832155,0.23635249,-0.49080405,-0.0031939526,-55.75785
17.9375,5.9375,-23.5625,30.202637,-0.10777738,-0.3144736,9.905751,0.28106782,0.09262462,-0.18311994,-73.66795
17.75,4.0,-24.1875,30.267105,-0.7393103,-0.9341122,10.4937,-0.12456415,0.09688323,0.8432035,-83.79611
18.6875,0.1875,-23.8125,30.270332,-0.6754043,0.5883224,8.846508,-0.29597294,0.09049532,1.2200899,-83.71617
13.75,-4.5,-26.25,29.972904,0.5304306,-0.23743777,11.640714,-0.27467993,0.1969604,1.9227594,-108.58555
15.125,-6.375,-24.875,29.802212,0.112786055,-0.6284013,9.588797,0.29597294,0.24380504,0.46525243,-117.35612
13.5,-8.0625,-25.0625,29.586868,-0.64490217,0.58157074,8.756008,-0.22251202,-0.05003859,0.45141196,-118.56367
13.3125,-8.125,-25.1875,29.625132,-0.009615114,0.020293253,11.20765,0.12456415,0.046844635,0.07984881,-121.29488
13.9375,-8.3125,-24.75,29.595846,-0.89163905,0.076480374,9.7512,-0.11285299,0.1969604,0.16927949,-124.89834
13.25,-8.3125,-25.125,29.596043,-0.15297034,0.3475136,10.823267,0.031939525,-0.018099064,0.33217105,-120.17282
13.9375,-8.6875,-24.6875,29.651293,0.20504901,0.35336503,9.972903,-0.008517207,0.011711159,-0.085172065,-118.42944
14.0,-8.5,-24.875,29.782808,-0.09452309,0.4136989,9.797438,0.02555162,0.046844635,-0.12669346,-118.39275
14.75,-8.25,-24.4375,29.712227,-0.21259554,0.37703887,9.368166,-0.10646509,0.05003859,-0.25764552,-117.05309
15.375,-8.125,-24.0625,29.688553,-0.1015333,0.28199866,10.009496,0.007452556,0.028745573,-0.31726596,-116.18432
15.9375,-8.125,-23.8125,29.783463,-0.0881162,0.089303724,10.090248,0.087301366,-0.052167892,-0.38433895,-116.705475
15.875,-8.125,-23.8125,29.750065,-0.9298792,-0.11060254,9.74194,-0.009581857,0.026616272,-0.085172065,-121.84257
15.5,-8.1875,-24.0,29.720114,-0.558098,0.005094861,9.913193,-0.033004176,-0.071331605,0.16395622,-120.05727
15.5,-8.1875,-24.25,29.922361,-0.52715534,0.16306429,10.016229,-0.06600835,-0.02448697,0.20015436,-118.70941
15.25,-8.3125,-24.125,29.726685,-0.5833712,-0.018971656,10.092049,-0.009581857,0.006387905,0.1234995,-121.145905
15.25,-8.125,-24.0625,29.624012,-0.16451038,-0.029352913,10.103157,-0.029810224,0.052167892,0.007452556,-118.88374
15.3125,-7.625,-24.125,29.574125,-0.21181025,-0.10425312,10.139837,0.008517207,0.052167892,-0.0628144,-118.01109
15.375,-6.75,-24.0625,29.34207,-0.1837023,-0.03717716,10.129945,0.007452556,-0.018099064,-0.09262462,-114.60298
15.25,-6.4375,-24.1875,29.309368,-0.4387231,-0.015370775,9.8620615,-0.020228365,-0.014905112,-0.01277581,-114.57732
15.25,-6.1875,-24.1875,29.255474,-0.31325737,0.007536947,9.958471,0.013840461,-0.018099064,0.019163715,-113.0724
14.5625,-6.9375,-24.25,29.124866,-0.53642565,-0.11979628,10.152066,-0.033004176,0.04897394,0.1905725,-118.601265
14.1875,-7.1875,-24.4375,29.157104,-0.25143906,-0.046830587,9.936799,0.010646508,-0.08304276,0.118176244,-118.30103
14.0625,-6.4375,-24.4375,28.920351,-0.23348254,-0.021231782,9.814216,-0.033004176,-0.07984881,0.013840461,-115.71675
12.9375,-7.875,-24.625,28.909948,-0.059376203,0.13062765,9.524518,0.06600835,-0.08304276,-0.008517207,-120.51754
12.0625,-9.0,-25.0,29.18054,-0.1079785,1.1831187,9.051251,-0.1905725,-0.14798647,0.6345319,-115.71694
8.6875,-9.9375,-26.0,29.158646,-0.2477041,0.33068714,10.1985035,-0.3854036,0.75803137,0.83042765,-138.43858
9.3125,-10.375,-25.8125,29.336811,0.27111942,-0.116980694,9.853002,-0.1841846,0.11604694,0.42692497,-136.82227
10.625,-9.125,-25.9375,29.477282,0.031105468,0.59360874,9.273605,0.104335785,-0.009581857,-0.45673522,-124.824455
13.125,-7.3125,-25.375,29.489471,-0.13391249,0.6172635,9.960473,0.11604694,-0.1884432,-1.1806978,-114.10144
14.875,-3.9375,-25.1875,29.515753,0.8681088,-1.4531367,10.969926,-0.16289158,-0.085172065,-0.7282212,-112.708755
16.9375,-0.0625,-24.0625,29.425953,2.3112571,-0.5583566,9.2199745,0.02555162,0.1927018,-1.2009262,-93.05623
15.4375,2.375,-25.1875,29.63726,1.6610588,0.17138654,9.976792,-0.36091664,0.34601152,-1.0444225,-81.909615
13.4375,6.125,-25.625,29.57571,1.5703856,-1.764881,11.467978,-0.054297194,0.19589576,-0.83681554,-81.52077
10.0,7.875,-26.4375,29.34207,0.740517,0.16622464,9.153894,-0.0606851,-0.0010646508,-0.83575094,-55.434235
8.5625,9.875,-26.0625,29.156233,1.061589,0.5927085,10.340452,0.47589892,-0.22889993,-1.2200899,-44.73041
4.75,11.6875,-26.3125,29.180607,0.89704037,-1.4768393,13.031697,-0.3374943,0.41201988,-0.6302733,-36.953728
3.75,11.625,-26.5625,29.236443,1.0860674,-0.01784159,9.515275,-0.008517207,0.2427404,-0.46418777,-30.201225
2.4375,13.3125,-26.25,29.533482,0.58416605,1.6922889,10.120645,0.08197811,0.32258922,0.21718878,-12.761687
-1.125,11.9375,-27.75,30.229654,-0.6119675,-0.380793,12.30886,0.18524924,0.056426495,-0.31833062,12.725282
-3.8125,12.0625,-27.8125,30.554447,-0.5092467,0.16594692,8.042679,-0.09901253,-0.044715334,-0.043650683,23.7752
-8.125,10.1875,-27.5,30.431082,0.22385786,1.0997525,9.578866,0.19376646,-0.06387905,-0.5003859,29.39574
-8.5625,9.0625,-27.5625,30.251226,0.49438348,0.74022967,11.333059,0.09688323,-0.105400436,-0.32578316,34.09986
-5.9375,7.25,-28.875,30.357569,0.77538615,-1.2173175,10.116279,0.17673203,-0.058555797,-0.13308136,44.990807
-5.8125,8.8125,-28.5,30.392357,0.20752941,0.84616834,7.1480517,0.010646508,0.3289771,0.63133794,22.351236
-3.4375,9.375,-28.5625,30.257618,-0.6169092,-0.50519574,11.357393,-0.30555478,-0.23528783,1.6257218,31.56522
-1.8125,9.1875,-28.5,29.999088,-0.87530094,-0.602927,9.008117,0.09155997,-0.26190412,1.1870856,32.01665
-2.0,6.1875,-28.625,29.354315,0.26209804,0.3863763,7.7605753,0.29277897,-0.18524924,0.8400095,7.7327356
4.8125,7.875,-27.8125,29.30377,-0.37003824,0.10576625,11.468572,0.8378802,-0.92198765,0.45354125,-25.695787
9.9375,7.0,-27.25,29.838171,-0.3690997,-1.0278883,8.998061,0.23848179,0.26190412,0.8921774,-66.558266
14.125,5.0,-26.9375,30.824415,0.5364066,0.07047572,7.942333,-0.1990897,0.25019294,1.3084558,-71.80322
16.1875,-0.625,-27.6875,32.078396,0.26841873,-1.1963155,13.44484,-0.32684782,-0.005323254,1.5778126,-100.31738
14.0625,-1.5625,-29.375,32.605,-0.3261669,-0.37116832,8.036061,0.16927949,0.15118042,0.8772723,-102.87873
13.4375,0.0,-29.8125,32.700943,0.5625991,0.47996083,7.980027,0.18524924,-0.07878416,-0.17247343,-83.65214
12.625,-1.8125,-30.0625,32.656235,1.3851031,0.48198155,13.130252,0.31087804,0.29703757,-0.26509807,-92.802376
13.0,-3.125,-29.625,32.502403,0.08334695,-1.0148925,8.066727,0.46951103,-0.086236715,-0.52700216,-117.00685
12.3125,-2.625,-30.0,32.534416,-0.6410619,0.881411,5.786278,-0.41627848,0.30981338,0.7250272,-76.94836
10.5625,-6.3125,-30.1875,32.599068,-1.1041292,0.46385264,12.145058,-0.5078384,0.2991669,0.85384995,-123.374405
1.875,-3.4375,-32.25,32.486835,0.39622122,-0.09692687,10.678149,0.942216,-0.014905112,0.86449647,-140.54066
4.9375,-2.5625,-32.0,32.479923,1.5516247,1.6186527,4.476324,-0.009581857,-0.08943067,-0.5110324,-65.73414
8.625,-4.4375,-31.0625,32.54168,0.46298113,0.56063586,13.523562,0.031939525,0.52700216,0.054297194,-108.07848
12.375,-5.9375,-29.9375,32.934002,0.43051577,-0.11384908,8.93133,0.04045673,-0.07665486,-0.18737854,-114.56933
15.25,-2.8125,-30.0625,33.82642,0.2714067,0.8640578,6.372982,-0.026616272,0.13733996,0.41308454,-85.990654
15.9375,-4.8125,-30.25,34.528633,-1.8876078,-0.044283155,13.113129,-0.41414917,-0.42798963,1.2158313,-113.22651
17.625,-3.625,-30.4375,35.358486,0.26606283,-0.50548303,9.502347,0.14692181,-0.28000316,-0.15437438,-105.75058
15.0,-4.25,-32.75,36.271545,0.33709404,1.201104,6.9845953,-0.28852037,0.16289158,-0.3076841,-85.7642
18.5,-4.1875,-31.875,37.09179,0.46344084,0.34488955,14.312183,0.6143035,-0.009581857,-0.9326341,-99.97546
19.75,-4.75,-31.8125,37.74467,-0.41629422,-0.75559086,9.235154,0.14266321,0.08197811,-0.40776128,-112.00786
15.75,-2.9375,-35.0,38.492744,-0.70616496,1.3009326,7.2716117,-0.4418301,0.51529104,0.6238854,-74.18544
17.5,-4.0,-34.5625,38.946327,0.15378436,-0.387401,13.951694,-0.13733996,0.04897394,0.36730453,-105.481544
18.9375,-3.25,-34.4375,39.435173,0.02525404,-0.2030283,8.045178,-0.16289158,-0.22464132,0.13521066,-102.19558
24.6875,-5.6875,-32.75,41.405106,-0.70989996,1.4313016,12.049356,0.58449334,-0.5291315,-0.9943839,-94.096565
27.125,-7.5625,-32.0,42.62578,-2.1073954,-1.1190116,12.667415,-0.48015752,1.7364455,0.8857895,-116.36816
25.625,-10.875,-32.75,42.98219,-0.055535905,1.6393483,5.5399814,0.31939524,0.46525243,0.07878416,-92.40696
24.9375,-13.4375,-32.0625,42.78375,0.283598,1.1879071,13.084954,-0.6473077,-0.5546831,0.52380824,-112.34533
25.5,-13.5625,-32.5,43.479206,-0.45356715,0.5344337,9.151127,0.46205845,-0.19376646,-0.48228684,-115.88073
24.6875,-16.875,-31.9375,43.752052,0.83670646,2.157597,8.999747,0.03832743,-0.5078384,0.17566739,-109.14635
24.8125,-16.25,-31.625,43.35739,0.4058076,1.4345865,12.7169075,-0.26722735,0.020228365,-0.90601784,-116.19186
26.875,-11.625,-31.125,42.733734,-0.032944214,-0.3890099,10.578398,-0.42586035,0.21293017,-0.66327745,-115.485374
25.625,-11.9375,-31.0625,42.00028,-1.7309886,1.870877,8.956249,0.21080087,0.44502404,0.179926,-103.40023
25.5625,-11.3125,-30.5,41.37226,-1.7309886,1.870877,8.956249,0.21080087,0.44502404,0.179926,-101.9608
24.8125,-11.625,-30.5625,41.047134,-2.8404331,-0.3303041,15.535429,-1.0050304,0.3374943,1.1455643,-123.134926
23.5625,-10.625,-31.125,40.457973,-0.44852975,1.4936755,4.680444,-0.13095206,-0.043650683,0.31513664,-90.1823
24.25,-11.25,-29.8125,40.042603,-0.57851577,2.5970004,12.835268,0.3076841,-0.36943385,-0.539778,-102.110695
24.3125,-11.5,-29.25,39.735504,-1.9699683,-0.4881011,15.024553,0.027680922,0.201219,0.28000316,-121.679085
22.6875,-13.4375,-29.375,39.473785,-0.5575713,0.36864,7.3752713,0.057491146,0.0606851,0.09475392,-120.19909
23.375,-12.0,-29.0,39.132988,0.21795854,3.1188595,8.700827,0.05003859,-0.13733996,0.42160174,-94.06984
20.8125,-14.75,-29.375,38.90518,-1.9781852,1.2000026,14.350844,-0.36623988,0.21931808,0.20867157,-125.994545
20.625,-17.6875,-28.125,39.105675,0.31301793,1.9019634,7.5954995,-0.035133477,-0.28426176,0.59407514,-115.84762
20.5625,-18.5,-27.375,38.916027,0.73315245,3.3188615,9.282512,0.6057863,-0.27893853,-0.40030873,-111.24493
19.875,-18.875,-27.1875,38.606236,2.442373,1.6164213,9.899047,0.43544218,-0.25019294,-0.66327745,-120.58547
18.0625,-18.4375,-28.375,38.357998,1.5122831,2.2138703,7.957781,-0.029810224,-0.04045673,-0.11285299,-116.17333
